condition,trial,Word,trials.thisRepN,trials.thisTrialN,trials.thisN,trials.thisIndex,trials_2.thisRepN,trials_2.thisTrialN,trials_2.thisN,trials_2.thisIndex,text_3.started,text_3.stopped,text_2.started,text_2.stopped,key_resp.keys,key_resp.started,key_resp.stopped,key_resp.rt,participant,session,date,expName,psychopyVersion,frameRate,
short,go,peak,0,0,0,14,,,,,18.8096725998912,None,30.938318599946797,31.638549499912187,None,30.938318599946797,None,,2,001,2021_Dec_01_1428,experiment,2021.2.3,59.93252793468025,
short,go,napkin,0,1,1,12,,,,,,,33.506659500068054,34.207446600077674,None,33.506659500068054,None,,2,001,2021_Dec_01_1428,experiment,2021.2.3,59.93252793468025,
short,no-go,wolrd,0,2,2,45,,,,,,,36.22939980006777,None,space,36.22939980006777,None,0.6052554999478161,2,001,2021_Dec_01_1428,experiment,2021.2.3,59.93252793468025,
short,no-go,beleif,0,3,3,26,,,,,,,37.87912809988484,None,space,37.87912809988484,None,0.6552421001251787,2,001,2021_Dec_01_1428,experiment,2021.2.3,59.93252793468025,
short,no-go,expret,0,4,4,34,,,,,,,39.56222669989802,40.26296459999867,None,39.56222669989802,None,,2,001,2021_Dec_01_1428,experiment,2021.2.3,59.93252793468025,
short,go,donkey,0,5,5,19,,,,,,,42.265338599914685,42.9657401998993,None,42.265338599914685,41.27155670011416,,2,001,2021_Dec_01_1428,experiment,2021.2.3,59.93252793468025,
short,no-go,muoth,0,6,6,43,,,,,,,44.98472830001265,None,space,44.98472830001265,43.98325160006061,0.541648400016129,2,001,2021_Dec_01_1428,experiment,2021.2.3,59.93252793468025,
short,no-go,ouftit,0,7,7,41,,,,,,,46.553361099911854,47.254136099945754,space,46.553361099911854,None,1.2240546001121402,2,001,2021_Dec_01_1428,experiment,2021.2.3,59.93252793468025,
short,go,decay,0,8,8,4,,,,,,,48.805830700090155,49.50633469992317,None,48.805830700090155,None,,2,001,2021_Dec_01_1428,experiment,2021.2.3,59.93252793468025,
short,no-go,obiect,0,9,9,27,,,,,,,51.492059000069275,None,space,51.492059000069275,50.513492200057954,0.5992902000434697,2,001,2021_Dec_01_1428,experiment,2021.2.3,59.93252793468025,
short,go,horror,0,10,10,15,,,,,,,53.11066080001183,53.811092199990526,None,53.11066080001183,None,,2,001,2021_Dec_01_1428,experiment,2021.2.3,59.93252793468025,
short,go,crown,0,11,11,21,,,,,,,55.813451800029725,56.51409829990007,None,55.813451800029725,54.82070149993524,,2,001,2021_Dec_01_1428,experiment,2021.2.3,59.93252793468025,
short,no-go,jaens,0,12,12,37,,,,,,,58.516568100079894,None,space,58.516568100079894,57.52900419989601,0.4867348000407219,2,001,2021_Dec_01_1428,experiment,2021.2.3,59.93252793468025,
short,go,touch,0,13,13,18,,,,,,,60.03481559990905,60.7354923998937,None,60.03481559990905,None,,2,001,2021_Dec_01_1428,experiment,2021.2.3,59.93252793468025,
short,go,memory,0,14,14,2,,,,,,,62.737822599941865,63.438585200114176,None,62.737822599941865,61.741104800021276,,2,001,2021_Dec_01_1428,experiment,2021.2.3,59.93252793468025,
short,no-go,widnow,0,15,15,35,,,,,,,65.44091699994169,None,space,65.44091699994169,64.44767190003768,0.5392459998838603,2,001,2021_Dec_01_1428,experiment,2021.2.3,59.93252793468025,
short,go,elf,0,16,16,11,,,,,,,67.00911740004085,67.70995469996706,None,67.00911740004085,None,,2,001,2021_Dec_01_1428,experiment,2021.2.3,59.93252793468025,
short,no-go,paerl,0,17,17,29,,,,,,,69.71209140005521,None,space,69.71209140005521,68.71495039993897,0.48808409995399415,2,001,2021_Dec_01_1428,experiment,2021.2.3,59.93252793468025,
short,go,accent,0,18,18,0,,,,,,,71.23048979998566,71.93127020006068,None,71.23048979998566,None,,2,001,2021_Dec_01_1428,experiment,2021.2.3,59.93252793468025,
short,go,quake,0,19,19,3,,,,,,,73.93353680009022,74.63440810004249,None,73.93353680009022,72.94621039996855,,2,001,2021_Dec_01_1428,experiment,2021.2.3,59.93252793468025,
short,go,sister,0,20,20,10,,,,,,,76.63654140010476,77.33727780007757,None,76.63654140010476,75.64047589991242,,2,001,2021_Dec_01_1428,experiment,2021.2.3,59.93252793468025,
short,go,land,0,21,21,23,,,,,,,79.33954069996253,80.0401075000409,None,79.33954069996253,78.3436636000406,,2,001,2021_Dec_01_1428,experiment,2021.2.3,59.93252793468025,
short,go,scale,0,22,22,8,,,,,,,82.04251760011539,82.7430567999836,None,82.04251760011539,81.04550849995576,,2,001,2021_Dec_01_1428,experiment,2021.2.3,59.93252793468025,
short,no-go,affiar,0,23,23,25,,,,,,,84.74531519995071,None,space,84.74531519995071,83.74816179997288,0.6641379999928176,2,001,2021_Dec_01_1428,experiment,2021.2.3,59.93252793468025,
short,go,review,0,24,24,13,,,,,,,86.44738489994779,87.14816939993761,None,86.44738489994779,None,,2,001,2021_Dec_01_1428,experiment,2021.2.3,59.93252793468025,
short,go,pilgrim,0,25,25,24,,,,,,,89.15034909988753,89.85094660008326,None,89.15034909988753,88.16088990005665,,2,001,2021_Dec_01_1428,experiment,2021.2.3,59.93252793468025,
short,no-go,hasmter,0,26,26,48,,,,,,,91.85322630009614,None,space,91.85322630009614,90.8602446001023,0.6380036000628024,2,001,2021_Dec_01_1428,experiment,2021.2.3,59.93252793468025,
short,no-go,mililon,0,27,27,40,,,,,,,93.50501760002226,None,space,93.50501760002226,None,0.6713272000197321,2,001,2021_Dec_01_1428,experiment,2021.2.3,59.93252793468025,
short,go,fruit,0,28,28,1,,,,,,,95.20673179998994,95.90740230004303,None,95.20673179998994,None,,2,001,2021_Dec_01_1428,experiment,2021.2.3,59.93252793468025,
short,no-go,abverb,0,29,29,46,,,,,,,97.89323400007561,98.59394349996,None,97.89323400007561,96.91539139999077,,2,001,2021_Dec_01_1428,experiment,2021.2.3,59.93252793468025,
short,go,bottom,0,30,30,7,,,,,,,100.5962571001146,101.2970362000633,None,100.5962571001146,99.60058369999751,,2,001,2021_Dec_01_1428,experiment,2021.2.3,59.93252793468025,
short,no-go,cemal,0,31,31,47,,,,,,,103.28254329995252,103.98327379999682,space,103.28254329995252,102.30389639991336,1.3405158000532538,2,001,2021_Dec_01_1428,experiment,2021.2.3,59.93252793468025,
short,no-go,noiton,0,32,32,28,,,,,,,105.65176869998686,106.35255130007863,space,105.65176869998686,None,1.131992100039497,2,001,2021_Dec_01_1428,experiment,2021.2.3,59.93252793468025,
short,go,clinic,0,33,33,17,,,,,,,107.80426210002042,108.50500039989129,None,107.80426210002042,None,,2,001,2021_Dec_01_1428,experiment,2021.2.3,59.93252793468025,
short,no-go,dagner,0,34,34,33,,,,,,,110.49034100002609,111.19121000007726,space,110.49034100002609,109.51172000006773,0.6980626999866217,2,001,2021_Dec_01_1428,experiment,2021.2.3,59.93252793468025,
short,go,dentist,0,35,35,16,,,,,,,112.20914210006595,112.90966559993103,None,112.20914210006595,None,,2,001,2021_Dec_01_1428,experiment,2021.2.3,59.93252793468025,
short,go,card,0,36,36,20,,,,,,,114.89531760010868,115.596058400115,None,114.89531760010868,113.91731379996054,,2,001,2021_Dec_01_1428,experiment,2021.2.3,59.93252793468025,
short,no-go,rythm,0,37,37,42,,,,,,,117.59827669989318,118.29914389993064,space,117.59827669989318,116.60092430002987,0.7609366001561284,2,001,2021_Dec_01_1428,experiment,2021.2.3,59.93252793468025,
short,no-go,imapct,0,38,38,44,,,,,,,119.38355770008639,120.08420910011046,space,119.38355770008639,None,0.8944065000396222,2,001,2021_Dec_01_1428,experiment,2021.2.3,59.93252793468025,
short,go,fight,0,39,39,22,,,,,,,121.3023767999839,122.00319420010783,None,121.3023767999839,None,,2,001,2021_Dec_01_1428,experiment,2021.2.3,59.93252793468025,
short,no-go,blause,0,40,40,30,,,,,,,124.0053779000882,124.70597189990804,space,124.0053779000882,123.01174489990808,0.7434900999069214,2,001,2021_Dec_01_1428,experiment,2021.2.3,59.93252793468025,
short,no-go,oirgin,0,41,41,39,,,,,,,125.75745279993862,126.45779539993964,space,125.75745279993862,None,1.0075077000074089,2,001,2021_Dec_01_1428,experiment,2021.2.3,59.93252793468025,
short,no-go,kindey,0,42,42,49,,,,,,,127.7929932998959,128.49372059991583,space,127.7929932998959,None,1.0543625999707729,2,001,2021_Dec_01_1428,experiment,2021.2.3,59.93252793468025,
short,no-go,yahct,0,43,43,31,,,,,,,129.8784318000544,130.57919669989496,None,129.8784318000544,None,,2,001,2021_Dec_01_1428,experiment,2021.2.3,59.93252793468025,
short,go,parent,0,44,44,6,,,,,,,132.58144739991985,133.2822994000744,None,132.58144739991985,131.5854559999425,,2,001,2021_Dec_01_1428,experiment,2021.2.3,59.93252793468025,
short,no-go,legnth,0,45,45,36,,,,,,,135.28448250005022,None,space,135.28448250005022,134.28852730011567,0.6707876999862492,2,001,2021_Dec_01_1428,experiment,2021.2.3,59.93252793468025,
short,go,drug,0,46,46,5,,,,,,,136.98646120005287,137.68715990008786,None,136.98646120005287,None,,2,001,2021_Dec_01_1428,experiment,2021.2.3,59.93252793468025,
short,go,beach,0,47,47,9,,,,,,,139.6724988000933,140.37336970004253,None,139.6724988000933,138.69497169996612,,2,001,2021_Dec_01_1428,experiment,2021.2.3,59.93252793468025,
short,no-go,sesnor,0,48,48,32,,,,,,,142.35897670011036,143.0597208000254,space,142.35897670011036,141.3810505999718,1.1311760998796672,2,001,2021_Dec_01_1428,experiment,2021.2.3,59.93252793468025,
short,no-go,heant,0,49,49,38,,,,,,,144.51130910008214,145.21195890009403,space,144.51130910008214,None,1.0149669998791069,2,001,2021_Dec_01_1428,experiment,2021.2.3,59.93252793468025,
long,go,university,,,,,0,0,0,8,,,146.5971190999262,147.29775579995476,None,146.5971190999262,None,,2,001,2021_Dec_01_1428,experiment,2021.2.3,59.93252793468025,
long,go,hurricane,,,,,0,1,1,3,,,149.2998730998952,150.00069630006328,None,149.2998730998952,148.30576179991476,,2,001,2021_Dec_01_1428,experiment,2021.2.3,59.93252793468025,
long,go,experience,,,,,0,2,2,17,,,152.00295139988884,152.70374760008417,None,152.00295139988884,151.01031889999285,,2,001,2021_Dec_01_1428,experiment,2021.2.3,59.93252793468025,
long,no-go,supremakret,,,,,0,3,3,36,,,154.705801300006,155.4066904000938,space,154.705801300006,153.71447829995304,0.8648069000337273,2,001,2021_Dec_01_1428,experiment,2021.2.3,59.93252793468025,
long,go,accommodation,,,,,0,4,4,2,,,156.59152880008332,157.2921460000798,None,156.59152880008332,None,,2,001,2021_Dec_01_1428,experiment,2021.2.3,59.93252793468025,
long,go,formation,,,,,0,5,5,20,,,159.29430579999462,159.99493360007182,None,159.29430579999462,158.3003942000214,,2,001,2021_Dec_01_1428,experiment,2021.2.3,59.93252793468025,
long,no-go,breafakst,,,,,0,6,6,34,,,161.99731640005484,162.69779330003075,space,161.99731640005484,161.0000048999209,1.0341360999736935,2,001,2021_Dec_01_1428,experiment,2021.2.3,59.93252793468025,
long,no-go,gilrfreind,,,,,0,7,7,37,,,164.04930750001222,164.75010999990627,space,164.04930750001222,None,0.7169809998013079,2,001,2021_Dec_01_1428,experiment,2021.2.3,59.93252793468025,
long,no-go,labarotary,,,,,0,8,8,29,,,165.78472719993442,166.485612800112,space,165.78472719993442,None,0.9176547999959439,2,001,2021_Dec_01_1428,experiment,2021.2.3,59.93252793468025,
long,no-go,precpetion,,,,,0,9,9,27,,,167.7202703000512,168.42100399988703,None,167.7202703000512,None,,2,001,2021_Dec_01_1428,experiment,2021.2.3,59.93252793468025,
long,no-go,auidence,,,,,0,10,10,30,,,170.42325469991192,None,space,170.42325469991192,169.43490880005993,0.6778940998483449,2,001,2021_Dec_01_1428,experiment,2021.2.3,59.93252793468025,
long,no-go,frmaework,,,,,0,11,11,26,,,172.1084664000664,171.13155040005222,space,172.1084664000664,None,0.6244347000028938,2,001,2021_Dec_01_1428,experiment,2021.2.3,59.93252793468025,
long,no-go,ecletricity,,,,,0,12,12,44,,,173.7602399000898,None,space,173.7602399000898,None,0.6494239999447018,2,001,2021_Dec_01_1428,experiment,2021.2.3,59.93252793468025,
long,no-go,imimgration,,,,,0,13,13,40,,,175.42880619992502,None,space,175.42880619992502,None,0.6658196998760104,2,001,2021_Dec_01_1428,experiment,2021.2.3,59.93252793468025,
long,go,creativity,,,,,0,14,14,0,,,177.09740810003132,177.79805069998838,None,177.09740810003132,None,,2,001,2021_Dec_01_1428,experiment,2021.2.3,59.93252793468025,
long,go,structure,,,,,0,15,15,6,,,179.80032239994034,180.5009023998864,None,179.80032239994034,178.80463879997842,,2,001,2021_Dec_01_1428,experiment,2021.2.3,59.93252793468025,
long,no-go,photgoaph,,,,,0,16,16,45,,,182.48665870004334,183.18732449994422,space,182.48665870004334,181.50891000009142,0.8403686000965536,2,001,2021_Dec_01_1428,experiment,2021.2.3,59.93252793468025,
long,go,passenger,,,,,0,17,17,18,,,184.35548230004497,185.05601419997402,None,184.35548230004497,None,,2,001,2021_Dec_01_1428,experiment,2021.2.3,59.93252793468025,
long,no-go,govrnement,,,,,0,18,18,31,,,187.05839859996922,None,space,187.05839859996922,186.06669189990498,0.5700153999496251,2,001,2021_Dec_01_1428,experiment,2021.2.3,59.93252793468025,
long,go,championship,,,,,0,19,19,15,,,188.6434881000314,189.34387709992006,None,188.6434881000314,None,,2,001,2021_Dec_01_1428,experiment,2021.2.3,59.93252793468025,
long,no-go,subtsanse,,,,,0,20,20,38,,,191.3462598999031,None,space,191.3462598999031,190.3525419998914,0.5356705000158399,2,001,2021_Dec_01_1428,experiment,2021.2.3,59.93252793468025,
long,no-go,ochrestra,,,,,0,21,21,48,,,192.91471670009196,193.61555130011402,space,192.91471670009196,None,0.9899261000100523,2,001,2021_Dec_01_1428,experiment,2021.2.3,59.93252793468025,
long,no-go,documneatry,,,,,0,22,22,28,,,194.93358720000833,195.6341766999103,space,194.93358720000833,None,0.8943811999633908,2,001,2021_Dec_01_1428,experiment,2021.2.3,59.93252793468025,
long,no-go,depatmrent,,,,,0,23,23,49,,,196.85256660007872,197.5532138000708,space,196.85256660007872,None,1.0185257999692112,2,001,2021_Dec_01_1428,experiment,2021.2.3,59.93252793468025,
long,go,government,,,,,0,24,24,9,,,198.88810169999488,199.58865060005337,None,198.88810169999488,None,,2,001,2021_Dec_01_1428,experiment,2021.2.3,59.93252793468025,
long,no-go,ciragette,,,,,0,25,25,33,,,201.59078660001978,202.2917583999224,space,201.59078660001978,200.59801349998452,0.7806349999736995,2,001,2021_Dec_01_1428,experiment,2021.2.3,59.93252793468025,
long,go,madication,,,,,0,26,26,16,,,203.3931187998969,None,space,203.3931187998969,None,0.6826989999972284,2,001,2021_Dec_01_1428,experiment,2021.2.3,59.93252793468025,
long,no-go,cerfiticate,,,,,0,27,27,43,,,205.09478919999674,205.79553320002742,space,205.09478919999674,None,1.0965310998726636,2,001,2021_Dec_01_1428,experiment,2021.2.3,59.93252793468025,
long,no-go,advetnure,,,,,0,28,28,25,,,207.21399679989554,None,space,207.21399679989554,None,0.6803208999335766,2,001,2021_Dec_01_1428,experiment,2021.2.3,59.93252793468025,
long,go,temperature,,,,,0,29,29,10,,,208.91575339995325,209.61646470008418,None,208.91575339995325,None,,2,001,2021_Dec_01_1428,experiment,2021.2.3,59.93252793468025,
long,go,scholarship,,,,,0,30,30,1,,,211.61883760010824,212.31939329998568,None,211.61883760010824,210.62572499993257,,2,001,2021_Dec_01_1428,experiment,2021.2.3,59.93252793468025,
long,go,narrative,,,,,0,31,31,12,,,214.32180400006473,215.0222436999902,None,214.32180400006473,213.32778450008482,,2,001,2021_Dec_01_1428,experiment,2021.2.3,59.93252793468025,
long,no-go,persolanity,,,,,0,32,32,35,,,217.0246500999201,217.72542629996315,space,217.0246500999201,216.02321480005048,0.8345665000379086,2,001,2021_Dec_01_1428,experiment,2021.2.3,59.93252793468025,
long,go,tournament,,,,,0,33,33,23,,,218.876730900025,219.5775492999237,None,218.876730900025,None,,2,001,2021_Dec_01_1428,experiment,2021.2.3,59.93252793468025,
long,no-go,beefstaek,,,,,0,34,34,41,,,221.5797639999073,None,space,221.5797639999073,220.58713870006613,0.5944340999703854,2,001,2021_Dec_01_1428,experiment,2021.2.3,59.93252793468025,
long,no-go,perfomarnce,,,,,0,35,35,42,,,223.1981454999186,223.89895089995116,space,223.1981454999186,None,1.0701943999156356,2,001,2021_Dec_01_1428,experiment,2021.2.3,59.93252793468025,
long,no-go,derpession,,,,,0,36,36,47,,,225.3004171999637,226.00126020004973,space,225.3004171999637,None,0.9143041998613626,2,001,2021_Dec_01_1428,experiment,2021.2.3,59.93252793468025,
long,go,statement,,,,,0,37,37,22,,,227.23606960009784,227.93663179990835,None,227.23606960009784,None,,2,001,2021_Dec_01_1428,experiment,2021.2.3,59.93252793468025,
long,go,background,,,,,0,38,38,4,,,229.9389376998879,230.63948010001332,None,229.9389376998879,228.9457866998855,,2,001,2021_Dec_01_1428,experiment,2021.2.3,59.93252793468025,
long,no-go,alcholic,,,,,0,39,39,32,,,232.64198469999246,None,space,232.64198469999246,231.64586280006915,0.639615299878642,2,001,2021_Dec_01_1428,experiment,2021.2.3,59.93252793468025,
long,go,commentary,,,,,0,40,40,13,,,234.31039789994247,235.01113420003094,None,234.31039789994247,None,,2,001,2021_Dec_01_1428,experiment,2021.2.3,59.93252793468025,
long,go,afternoon,,,,,0,41,41,14,,,237.01334060006775,237.7140063000843,space,237.01334060006775,236.0211519000586,0.6871064000297338,2,001,2021_Dec_01_1428,experiment,2021.2.3,59.93252793468025,
long,no-go,trasntcipt,,,,,0,42,42,46,,,238.7319549000822,None,space,238.7319549000822,None,0.6766436998732388,2,001,2021_Dec_01_1428,experiment,2021.2.3,59.93252793468025,
long,no-go,terrirost,,,,,0,43,43,39,,,240.43366020009853,241.13456210005097,space,240.43366020009853,None,0.7240216999780387,2,001,2021_Dec_01_1428,experiment,2021.2.3,59.93252793468025,
long,go,paragraph,,,,,0,44,44,24,,,242.18576260004193,242.88656240003183,None,242.18576260004193,None,,2,001,2021_Dec_01_1428,experiment,2021.2.3,59.93252793468025,
long,go,stereotype,,,,,0,45,45,5,,,244.88873349991627,245.58945419988595,None,244.88873349991627,243.89515200001188,,2,001,2021_Dec_01_1428,experiment,2021.2.3,59.93252793468025,
long,go,addiction,,,,,0,46,46,19,,,247.5916476000566,248.29241059999913,None,247.5916476000566,246.5979780999478,,2,001,2021_Dec_01_1428,experiment,2021.2.3,59.93252793468025,
long,go,professor,,,,,0,47,47,21,,,250.2945465000812,250.99549779994413,None,250.2945465000812,249.30093250004575,,2,001,2021_Dec_01_1428,experiment,2021.2.3,59.93252793468025,
long,go,president,,,,,0,48,48,11,,,252.99768729996867,253.69852129998617,None,252.99768729996867,252.00465560005978,,2,001,2021_Dec_01_1428,experiment,2021.2.3,59.93252793468025,
long,go,vegetable,,,,,0,49,49,7,,,255.68378069996834,256.38481589988805,None,255.68378069996834,254.70579700008966,,2,001,2021_Dec_01_1428,experiment,2021.2.3,59.93252793468025,
